# Emission spectrum of  in ethanol
#
# Data from PhotochemCAD 2.1a has been munged on 26 February 2012 by Scott Prahl to make
# the information available to non-Windows users.  Although I have tried to be as careful
# as possible, I may have introduced some error; the cautious user is advised to compare
# these results with the original sources at www.photochemcad.com:
#
# H. Du, R. A. Fuh, J. Li, A. Corkan, J. S. Lindsey, "PhotochemCAD: A computer-aided design
#     and research tool in photochemistry," Photochem. Photobiol., 68, 141-142, 1998. 
# J. M. Dixon, M. Taniguchi and J. S. Lindsey "PhotochemCAD 2. A refined program with accompanying 
#     spectral databases for photochemical calculations", Photochem. Photobiol., 81, 212-213, 2005.
#
# The spectral absorption measurements were made by  on on 06-20-1995 
# using a Spex FluoroMax.   The excitation and emission monochromators were set at 1 mm, giving a spectral bandwidth of 4.25 nm.  The data interval was 0.5 nm and the integration time was 2.0 sec. Samples were prepared in 1cm pathlength quartz cells with absorbance less than 0.1 at the excitation and all emission wavelengths to uniformly illuminate across the sample, and to avoid the inner-filter effect.  The dark counts were subtracted and the spectra were corrected for wavelength-dependent instrument sensitivity.
#
##Wavelength (nm)	Emission (AU)
560	261067
560.5	287778
561	310654
561.5	347731
562	370579
562.5	410699
563	442601
563.5	495614
564	529872
564.5	577749
565	620782
565.5	688783
566	735287
566.5	800897
567	855794
567.5	944416
568	997611
568.5	1084482
569	1157639
569.5	1271359
570	1335758
570.5	1448913
571	1535004
571.5	1675027
572	1759079
572.5	1884956
573	1996347
573.5	2145490
574	2261068
574.5	2408624
575	2553900
575.5	2722428
576	2831454
576.5	3015238
577	3168992
577.5	3352934
578	3471705
578.5	3651655
579	3803399
579.5	3985346
580	4100344
580.5	4249945
581	4399162
581.5	4561161
582	4678555
582.5	4820745
583	4933071
583.5	5082878
584	5175903
584.5	5288665
585	5384091
585.5	5499962
586	5574869
586.5	5653162
587	5722185
587.5	5792153
588	5833109
588.5	5880330
589	5913301
589.5	5933058
590	5952832
590.5	5955019
591	5967567
591.5	5945425
592	5941473
592.5	5916792
593	5884806
593.5	5831733
594	5800636
594.5	5740202
595	5700303
595.5	5611998
596	5577215
596.5	5497266
597	5424256
597.5	5328319
598	5264647
598.5	5164609
599	5075120
599.5	4951545
600	4886822
600.5	4779861
601	4682895
601.5	4565482
602	4493224
602.5	4377557
603	4294656
603.5	4179276
604	4113615
604.5	4018475
605	3929066
605.5	3815612
606	3760112
606.5	3662724
607	3589422
607.5	3474701
608	3416637
608.5	3330481
609	3257769
609.5	3154481
610	3101203
610.5	3017297
611	2951385
611.5	2852675
612	2805982
612.5	2739737
613	2677777
613.5	2594263
614	2549222
614.5	2487729
615	2436273
615.5	2362242
616	2334374
616.5	2267321
617	2234765
617.5	2170075
618	2142563
618.5	2081872
619	2053341
619.5	1999430
620	1969075
620.5	1935010
621	1905495
621.5	1859511
622	1839252
622.5	1806318
623	1775579
623.5	1743460
624	1722658
624.5	1692359
625	1667825
625.5	1633460
626	1616974
626.5	1595966
627	1577317
627.5	1553779
628	1544638
628.5	1528566
629	1520925
629.5	1504877
630	1501750
630.5	1490735
631	1487837
631.5	1472056
632	1470752
632.5	1466628
633	1458673
633.5	1451930
634	1446413
634.5	1448334
635	1442904
635.5	1437649
636	1432725
636.5	1428677
637	1424929
637.5	1420700
638	1413485
638.5	1413291
639	1408683
639.5	1403513
640	1397795
640.5	1396147
641	1386525
641.5	1383346
642	1379550
642.5	1372911
643	1369610
643.5	1357604
644	1351686
644.5	1342927
645	1337257
645.5	1324593
646	1321313
646.5	1313898
647	1303040
647.5	1288856
648	1280885
648.5	1266250
649	1250431
649.5	1236784
650	1228484
650.5	1213828
651	1198564
651.5	1185328
652	1171384
652.5	1154711
653	1141406
653.5	1120673
654	1112250
654.5	1094394
655	1081182
655.5	1061025
656	1047266
656.5	1031609
657	1014191
657.5	993589
658	978254
658.5	962041
659	943401
659.5	924004
660	906639
660.5	893178
661	875069
661.5	853453
662	843195
662.5	824518
663	806941
663.5	789558
664	778835
664.5	762698
665	747290
665.5	726677
666	720881
666.5	701155
667	691433
667.5	669734
668	664313
668.5	649207
669	636959
669.5	621230
670	610108
670.5	597470
671	586872
671.5	572225
672	561913
672.5	547159
673	537146
673.5	520489
674	515115
674.5	499521
675	492640
675.5	477333
676	469689
676.5	461594
677	453006
677.5	437848
678	431313
678.5	423708
679	413952
679.5	404320
680	399324
680.5	392116
681	385103
681.5	376276
682	369943
682.5	363637
683	355911
683.5	345256
684	341626
684.5	336896
685	328990
685.5	323354
686	316948
686.5	314688
687	307637
687.5	302239
688	297759
688.5	293373
689	290060
689.5	284232
690	280185
690.5	278334
691	272866
691.5	266922
692	265984
692.5	261841
693	259821
693.5	254390
694	253400
694.5	249144
695	246580
695.5	239799
696	240844
696.5	235796
697	232985
697.5	228755
698	228054
698.5	225597
699	222695
699.5	218116
700	217459
700.5	216881
701	213511
701.5	211092
702	210821
702.5	206653
703	205864
703.5	202955
704	202485
704.5	199803
705	199583
705.5	194756
706	196985
706.5	192626
707	192369
707.5	187491
708	186788
708.5	187132
709	185431
709.5	182716
710	182573
710.5	182064
711	179721
711.5	177871
712	175304
712.5	174982
713	172967
713.5	170271
714	169614
714.5	168232
715	167045
715.5	163619
716	164479
716.5	162625
717	161360
717.5	156165
718	157363
718.5	155988
719	153944
719.5	150813
720	148283
720.5	148783
721	147988
721.5	145794
722	142816
722.5	143312
723	142431
723.5	138553
724	137600
724.5	134903
725	133129
725.5	131355
726	129483
726.5	128641
727	126713
727.5	125071
728	123771
728.5	123484
729	120821
729.5	118212
730	116896
730.5	115551
731	113592
731.5	110707
732	110932
732.5	108679
733	108072
733.5	104403
734	104449
734.5	102907
735	101335
735.5	98742
736	98848
736.5	96818
737	95531
737.5	93676
738	92587
738.5	91041
739	90270
739.5	87878
740	87031
740.5	85405
741	84837
741.5	82528
742	82006
742.5	81274
743	79514
743.5	77528
744	77044
744.5	76524
745	74505
745.5	73862
746	72417
746.5	71400
747	69939
747.5	68709
748	68625
748.5	68555
749	65095
749.5	64911
750	64910
750.5	63614
751	61827
751.5	60176
752	61130
752.5	60687
753	58489
753.5	58169
754	56715
754.5	55441
755	55242
755.5	54636
756	53083
756.5	52794
757	52548
757.5	51578
758	51289
758.5	50730
759	49104
759.5	49314
760	47101
760.5	47652
761	47262
761.5	47256
762	45799
762.5	45044
763	44898
763.5	44036
764	43351
764.5	42247
765	43728
765.5	41736
766	41662
766.5	41081
767	40187
767.5	41246
768	39805
768.5	39516
769	39540
769.5	39242
770	39293
770.5	38947
771	38163
771.5	37581
772	37138
772.5	36804
773	36248
773.5	37778
774	35397
774.5	35290
775	35994
775.5	35173
776	35233
776.5	34464
777	34646
777.5	34637
778	34783
778.5	33759
779	33067
779.5	34188
780	32970
780.5	32615
781	32823
781.5	31192
782	31857
782.5	32070
783	31722
783.5	31500
784	31533
784.5	31845
785	31419
785.5	30763
786	30573
786.5	30512
787	29812
787.5	30319
788	30052
788.5	30012
789	30098
789.5	29152
790	29243
790.5	30025
791	29957
791.5	28848
792	29059
792.5	28633
793	28562
793.5	28247
794	28769
794.5	29080
795	28567
795.5	28190
796	27901
796.5	27390
797	28102
797.5	28831
798	28186
798.5	28210
799	29041
799.5	27561
800	27020
